File: Shear Wall dataset.csv
Author,Yield Stresses of Vertical Bars (MPa),Yield Stresses of Horizontal Reinforcement (MPa),Yield Stress of Confinement Reinforcement (MPa),Concrete Compressive Strength (MPa),Web Vertical Reinforcement Ratio,Boundary Region Vertical Reinforcement Ratio,Web Horizontal Reinforcement Ratio,Boundary Region (Volume) Horizontal Reinforcement Ratio,Section,lw/tw,Aspect ratio,Ab/Ag,P/fcAg,FailureMode,Experiment ID
Hirosawa (1975),284.2,284.2,294,31.9,0.0367,0.047,0.0367,0.001570796,B,45,1.06667,0.307692,0,2,Tanabe_2-4 (100)
Aanasopoulou (2010),316.965,316.965,243.522,29.9577,0.005,0.012,0.005,0.143175,R,10,1.3,0,0,1,S10
Massone et al. (2009),351,351,351,33,0.00256,0.0133,0.00278,0,R,10,1,0,0,2,WS-T4-S2
Pilakoutas et al. (1995),500,400,400,38.6,0.0031,0.0283,0.0031,0.0017,R,10,2,0,0,2,SW6
Hirosawa (1975),571.3,571.3,284.2,20.8,0.0033,0.0177,0.0033,0.000567232,B,27,0.5,0.2,0,2,Sugano_2-5 (144)
Mansur et al. (1992),429,429,460,31.4,0.0055,0.0314,0.0055,0.0028,B,11.6667,0.857143,0.243902,0,2,W3
Barda et al. (1977),544,512.6,482.3,27,0.005,0.041,0.005,0.003652109,F,16.6863,0.559929,0.208761,0,2,B3-2
SLDRCE (2008),526.77,345,345,37.3,0.007,0.0372,0.0084,0.014,R,12,2.61111,0,0,2,Zhou_SW2
Palermo and Vecchio (2002),605,605,605,18.8,0.0079,0.003,0.0073,0.001,F,35.9333,0.749536,0.370545,0.0773343,2,DP2
Kuang and Ho (2008),520,520,520,31.3,0.0092,0,0.0105,0.021,R,12,1,0,0,1,U1.0-BC
Mansur et al. (1992),359,359,460,31.4,0.0062,0.0314,0.0062,0.0028,B,11.6667,0.857143,0.243902,0,2,W4
Lefas et al. (1990a),470,520,420,40.48,0.025,0.033,0.008,0.009,R,10,2.11538,0,0.106415,1,SW22
Oesterle et al. (1976),501.6,501.6,501.6,45.3,0.0029,0.0367,0.0063,0.0135,B,12.6961,3.5305,0.292403,0,2,B5
Hirosawa (1975),284.2,284.2,294,35.3,0.0092,0.047,0.0092,0.001570796,B,11.25,1.06667,0.142857,0,2,Tanabe_2-12 (108)
Hirosawa (1975),261.7,261.7,294,18.6,0.0024,0.0252,0.0024,0.000615752,B,13.3333,1.75,0.3125,0,1,Hirosawa_2-2 (11)
Oesterle et al. (1979),460.9,460.9,460.9,44.1,0.0029,0.0367,0.0063,0.0135,B,12.6961,3.5305,0.292403,0.0852073,2,B9
Hirosawa (1975),406.7,414.9,414.9,20.8,0.004,0.0844,0.0108,0.0371874,R,5.3125,2,0,0.0942308,1,Hirosawa_9-4 (85)
Hirosawa (1975),406.7,419,419,20.8,0.005,0.0568,0.0026,0.009296853,R,10.625,1,0,0.0942308,2,Hirosawa_7-2 (73)
Hirosawa (1975),294,294,294,45.6,0.0244,0.047,0.0244,0.001570796,B,45,1.06667,0.307692,0,2,Tanabe_4-3 (120)
SLDRCE (2008),352,392,392,37.7,0.00534005,0.0223,0.005980855,0.009345087,R,8,2,0,0.417282,1,Zhang_SW5-3
Salonikios et al. (1999),610,610,610,23.9,0.0028,0.013,0.0028,0.017,R,12,1,0,0.07,2,LSW3
Han et al. (2002),395,335,335,36.9,0.0032,0.0127,0.0028,0.0099,R,7.5,3,0,0.1,1,W3
Tomazevic et al. (1996),478,478,538,54.8,0.0026,0.023,0.0026,0,R,19.4,1.4433,0,0.0766423,2,SW23N2
Lefas et al. (1990a),470,520,420,34.64,0.024,0.031,0.011,0.012,R,10.7143,1.1,0,0.101727,1,SW15
Hidalgo et al. (2002),471,471,471,15.7,0.0026,0.0472222,0.0025,0.0025,R,10.8333,0.692308,0,0,2,8
Lu et al. (2017),300,300,300,40.5,0.0053,0,0.0025,0,R,9.33333,2,0,0.0358689,1,C1
Park et al. (2015),653,667,667,46.5,0.0036,0.097,0.0025,0.0624,R,7.5,1.16667,0,0.06953405,2,S7
Barda et al. (1977),542,495.4,499.5,29,0.005,0.018,0.005,0.003652109,F,16.6863,0.559929,0.208761,0,2,B1-1
Hirosawa (1975),284.2,284.2,294,34.9,0.0183,0.047,0.0183,0.001570796,B,22.5,1.06667,0.222222,0,2,Tanabe_2-7 (103)
SLDRCE (2008),352,392,392,19.7,0.004843924,0.0167,0.004650167,0.007265886,R,8,2,0,0.432587,1,Zhang_SW1-4
Hirosawa (1975),406.7,421.3,421.3,20.8,0.004,0.0991,0.0057,0.0185937,R,5.3125,2,0,0.0942308,1,Hirosawa_9-1 (82)
Greifenhagen and Lestuzzi (2005),504,745,504,20.1,0.003,0,0.003,0,R,11.25,0.766667,0,0.09673853,2,M3
Massone et al. (2009),424,424,448.2,25.5,0.00428,0.0312,0.00278,0,R,10,1,0,0,2,WS-T1-S1
Lu et al. (2018),300,300,300,40.5,0.0053,0,0.0025,0,R,9.33333,2,0,0.0400276,1,C2
Park et al. (2015),653,667,667,46.5,0.0036,0.02,0.0025,0.062,R,7.5,1.16667,0,0.06953405,1,S8
Kimura and Sugano (1996),580,658,658,79,0.00785,0.01178,0.01131,0.01178,B,17.5,1.71429,0,0.10087,2,W8N13
Christidis and Trezos (2017),564,568,568,25.37,0.01206,0.0123294,0.00113,0,R,6,1.86667,0,0,2,W13
Gebreyohaness et al (2014),351,351,472,21.4,0.0013,0.014,0.0013,0,R,5.65217,1.23077,0,0,2,WSS2
Christidis and Trezos (2017),580,588,588,31.12,0.01206,0.0118959,0.00201,0,R,6,1.86667,0,0,2,W9
Hube et al. (2017),446,632,632,28.9,0.0014,0.001374888,0.0014,0.008,R,16,1.09375,0,0,2,WSL4
Kimura and Sugano (1996),580,658,658,42.5,0.00785,0.01178,0.01616,0.01178,B,17.5,1.71429,0,0.259559,2,W4N18C
Hirosawa (1975),333.2,333.2,382.2,16.9,0.0037,0.0068,0.0042,0.000596455,F,12.3333,0.581081,0.223881,0,2,Kokusho_1-4 (38)
Lefas et al. (1990a),470,520,420,24.08,0.025,0.033,0.004,0.009,R,10,2.11538,0,0,1,SW26
Hidalgo et al. (2002),402,402,402,19.6,0.0025,0.0472222,0.0025,0.0025,R,8.33333,1,0,0,2,2
Zhang and Wang (2000),305,305,305,34.7,0.0067,0.0153,0.0101,0.08,R,7,2.14286,0,0.283429,1,SRCW12
Tran (2012),477,443,423,55.8,0.0073,0.0606,0.0073,0.0129738,R,8.01974,1.50041,0,0.0641257,2,RW-A15-P10-S78
Villalobos (2014),434,530.9,434,30.3,0.004,0.049,0.0055,0,R,7.50739,2.1752,0,0.0948123,1,WMCN
SLDRCE (2008),478,325,325,18.3,0.0099,0.0503,0.0101,0.0101,R,24.8806,0.559688,0,0.195703,2,Jiang_SSW-3
Hirosawa (1975),323.4,323.4,323.4,45.4,0.0163,0.047,0.0163,0.001570796,B,15,1.06667,0.173913,0,2,Tanabe_4-7 (124)
Zhang and Wang (2000),305,305,305,40.2,0.0067,0.0065,0.0101,0.12,R,7,2.14286,0,0.278607,1,SW8
Cheng et al. (2016),786,786,453,38,0.0015,0.0177,0.0015,0.0283,R,10.0099,1,0,0,2,M115
Teng and Chandra (2016),630,610,617,96.8,0.0075,0.0388,0.0028,0.0253,F,7.6,1.57895,0.306122,0.05,2,J2
Ghorbani-Renani et al. (2009),450,450,450,47,0.0071,0.0356,0.0067,0.0264,R,6.52381,2.08029,0,0,1,B2C
Tokunaga and Nakachi (2012),393,372,393,35.7,0.0291,0,0.0116,0,R,4.77778,1.51163,0,0.400263,2,H1
Lefas et al. (1990a),470,520,420,36,0.025,0.033,0.008,0.009,R,10,2.11538,0,0.213675,1,SW25
Hube et al. (2014),445.6,608.9,445.6,27.4,0.0072,0.0045,0.0056,0,R,7,2.5,0,0.149635,1,W9
Hidalgo et al. (2002),314,314,314,17.6,0.0026,0.0472222,0.0013,0.0013,R,10.8333,0.692308,0,0,2,6
Nakamura et al. (2009),296,296,296,39.3,0.0116,0.0116,0.0116,0.0116,F,25.6667,0.727273,0.254777,0.0498874,2,I-1
SLDRCE (2008),478,325,325,18.3,0.0099,0.031,0.0101,0.0101,R,24.8806,0.559688,0,0.0978517,2,Jiang_SSW-2
Abdulridha and Palermo (2017),425,425,425,30.5,0.0088,0.0133,0.0088,0.0088,R,6.66667,2.2,0,0,1,W1-SR
Zhou et.(2010),345,345,523.7,37.33,0.00698,0.0372,0.00837,0.014,R,12,2.5,0,0.0793722,1,SW-1
Terzioglu et al. (2018),584,584,473,27,0.0034,0.0515,0.0034,0.0034,R,12.5,0.5,0,0.0987654,2,T1-N10-S1-11
Lefas et al. (1990a),470,520,420,41.84,0.024,0.031,0.011,0.012,R,10.7143,1.1,0,0,1,SW11
Tran (2012),472,516,423,48.8,0.0032,0.0323,0.0032,0.0129566,R,8.01974,1.50041,0,0.0771948,1,RW-A15-P10-S51
Hirosawa (1975),396.9,396.9,284.2,20.9,0.0077,0.0177,0.0074,0.000567232,B,27,0.5,0.2,0,2,Sugano_2-8 (147)
Hirosawa (1975),406.7,414.9,414.9,17.8,0.004,0.0844,0.0108,0.0371874,R,5.3125,2,0,0.110112,1,Hirosawa_9-3 (84)
Hsiao et al.(2008),364.56,364.56,515.48,28.6,0.0036,0.004595717,0.0036,0.004036044,B,31.25,0.8,0,0,2,MW1
Hirosawa (1975),323.4,323.4,401.8,19.9,0.007,0.0071,0.0073,0.000569661,F,16.087,0.581081,0.25276,0,2,Kokusho_2-5 (46)
Hirosawa (1975),294,294,294,46.8,0.0244,0.047,0.0244,0.001570796,B,45,1.06667,0.307692,0,2,Tanabe_4-2 (119)
Kimura and Sugano (1996),580,658,658,79.4,0.00785,0.01178,0.01131,0.01178,B,17.5,1.71429,0,0.0617916,2,W8N08H
Yuan et al. (2018),544,544,473,45.9,0.0071,0.0037,0.0071,0.008881633,R,6.4,1.84375,0,0.129953,1,SW-2
Jiang et al. (2013),450.1,435.2,450.1,28,0.0066,0.0125,0.0066,0.00111,F,8,2.5,0.277778,0.3,1,SW5
SLDRCE (2008),352,392,392,37.7,0.006230058,0.0167,0.005980855,0.009345087,R,8,2,0,0.417282,1,Zhang_SW6-2
Teng and Chandra (2016),630,578,617,110.7,0.0028,0.0388,0.0075,0.0253,F,7.6,2.89474,0.306122,0.05,2,J7
Hidalgo et al. (2002),402,402,402,19.5,0.0025,0.0587963,0.0038,0.0038,R,8.33333,1,0,0,2,4
Lu et al. (2022),300,300,300,40.5,0.0053,0,0.0025,0.00875,R,9.33333,2,0,0.0370229,1,C6
Lefas et al. (1990a),470,520,420,42.88,0.024,0.031,0.011,0.012,R,10.7143,1.1,0,0.102168,1,SW12
Hirosawa (1975),293,293,294,23.5,0.0023,0.0251,0.0021,0.000615752,B,13.3333,1.75,0.3125,0,1,Hirosawa_1-1 (6)
Dabbagh (2005),500,500,500,53.72,0.005,0.0429766,0.005,0.000669626,F,10.6667,1.25,0.277778,0.103359,2,SW1
Barda et al. (1977),551,498.8,485.7,16.3,0.005,0.064,0.005,0.003652109,F,16.6863,0.559929,0.208761,0,2,B2-1
Chiou et al. (2004),458.72,458.84,458.84,23.45,0.002764632,0.0108289,0.00197422,0.002961331,B,12.5,1.33333,0.003448276,0,2,LWF2
Hirosawa (1975),323.4,323.4,323.4,43.7,0.0244,0.047,0.0244,0.001570796,B,22.5,1.06667,0.222222,0,2,Tanabe_4-4 (121)
Palermo and Vecchio (2002),605,605,605,21.7,0.0079,0.0032,0.0073,0.001,F,35.9333,0.749536,0.370545,0.0695657,2,DP1
Park et al. (2015),653,667,667,70.3,0.0036,0.097,0.0025,0,R,7.5,1.16667,0,0.06970128,2,S6
Su and Wong (2007),412,262,412,58.8,0.0196,0,0.0054,0,R,5,3.7875,0,0.249626,1,W1
Hirosawa (1975),294,294,294,45.3,0.0092,0.047,0.0092,0.001570796,B,11.25,1.06667,0.142857,0,2,Tanabe_3-7 (116)
Hirosawa (1975),401.8,401.8,401.8,17.9,0.0047,0.0071,0.0054,0.000707761,F,16.087,0.581081,0.25276,0,2,Kokusho_2-2 (43)
Hirosawa (1975),406.7,420.4,420.4,13.7,0.005,0.0251,0.0061,0.0185937,R,10.625,1,0,0.143066,2,Hirosawa_8-2 (79)
Deng et al.(2008),433.3,361.6,361.6,60.26,0.001669162,0.0238416,0.008000531,0.005280351,R,10,2,0,0.133298,1,HPCW-03
Greifenhagen and Lestuzzi (2005),504,745,504,24.4,0.003,0,0.003,0,R,11.25,0.766667,0,0.0495219,1,M4
Hirosawa (1975),382.2,382.2,382.2,16.1,0.0036,0.0068,0.0041,0.000684169,F,12.3333,0.581081,0.223881,0,2,Kokusho_1-7 (41)
Hirosawa (1975),382.2,382.2,382.2,16.9,0.0036,0.0068,0.0041,0.000684169,F,12.3333,0.581081,0.223881,0,2,Kokusho_1-3 (37)
Hirosawa (1975),323.4,323.4,401.8,13.8,0.0069,0.0152,0.0066,0.000569661,F,23.125,1.08108,0.297538,0,2,Kokusho_3-6 (53)
Barda et al. (1977),535,535,490.6,19,0.005,0.041,0,0,F,16.6863,0.559929,0.208761,0,2,B4-3
Hidalgo et al. (2002),366,366,366,18.8,0.0025,0.0625,0.0025,0.0025,R,21.25,0.352941,0,0,2,16
SLDRCE (2008),352,392,392,37.7,0.006230058,0.0167,0.005980855,0.009345087,R,8,2,0,0.417282,1,Zhang_SW6-3
Zhang and Wang (2000),305,305,305,43.1,0.0067,0.018,0.0101,0.08,R,7,2.14286,0,0.197123,1,SW9
Hirosawa (1975),571.3,571.3,284.2,21.3,0.0066,0.0177,0.0066,0.000567232,B,27,0.5,0.2,0,2,Sugano_2-3 (142)
Oesterle et al. (1979),489.2,489.2,489.2,49.3,0.0029,0.0367,0.0063,0.0135,B,12.6961,3.5305,0.292403,0.0762199,2,B7
Hirosawa (1975),406.7,421.3,421.3,17.8,0.004,0.0991,0.0057,0.0185937,R,5.3125,2,0,0.110112,1,Hirosawa_9-2 (83)
Park et al. (2015),653,667,667,70.3,0.0066,0.097,0.0051,0,R,7.5,1.16667,0,0.06970128,2,S3
Oesterle et al. (1976),521.6,521.6,521.6,44.7,0.0025,0.0147,0.0031,0.000171396,R,18.6765,2.4,0,0,1,R1
Hidalgo et al. (2002),366,366,366,17.1,0.0025,0.0625,0.0013,0.0013,R,21.25,0.352941,0,0,2,14
Teng and Chandra (2016),630,578,617,110.7,0.0028,0.0388,0.0075,0.0253,F,7.6,1.57895,0.306122,0.05,2,J3
Hirosawa (1975),293,293,294,26.9,0.0023,0.0251,0.0021,0.000615752,B,13.3333,1.75,0.3125,0.0728625,1,Hirosawa_1-3 (8)
Kimura and Sugano (1996),580,658,658,72.8,0.00785,0.01178,0.01131,0.01178,B,17.5,1.71429,0,0.151528,2,W8N18
Oesterle et al. (1979),511.2,511.2,487.1,21.8,0.0029,0.0367,0.0063,0.0081,B,12.6961,3.5305,0.292403,0.134416,2,B6
Villalobos (2014),434,455.1,434,31.7,0.004,0.049,0.0055,0,R,7.50739,2.1752,0,0.090625,2,W60N2
Jiang et al. (2013),450.1,435.2,450.1,28,0.0066,0.0125,0.0066,0.00222,F,8,2.5,0.277778,0.1,1,SW1
Cheng et al. (2016),806,806,453,44,0.0041,0.0265,0.0041,0.0283,R,10.0099,1,0,0,2,H115
SLDRCE (2008),352,392,392,37.7,0.006230058,0.0167,0.005980855,0.009345087,R,8,2,0,0.417282,1,Zhang_SW4-3
Aanasopoulou (2010),317.011,317.011,243.557,33.7705,0.0067,0.014,0.0067,0.169206,R,10,1.3,0,0,1,S9
Han et al. (2002),395,335,335,34.2,0.0032,0.0127,0.0028,0.0099,R,7.5,2,0,0.1,1,W2
Hidalgo et al. (2002),362,362,362,16.3,0.0026,0.0533333,0.0013,0.0013,R,14,0.5,0,0,2,11
Christidis and Trezos (2017),588,588,588,31.12,0.01433,0.0242422,0.00669,0.0669,R,6,1.86667,0,0,1,W7
Hidalgo et al. (2002),471,471,471,18.1,0.0013,0.0472222,0.0025,0.0025,R,10.8333,0.692308,0,0,2,7
Barda et al. (1977),528,496.1,496.1,21.2,0.0025,0.041,0.005,0.003652109,F,16.6863,0.559929,0.208761,0,2,B6-4
Hirosawa (1975),323.4,323.4,323.4,43.8,0.0122,0.047,0.0122,0.001570796,B,11.25,1.06667,0.142857,0,2,Tanabe_4-10 (127)
Hirosawa (1975),406.7,421.3,421.3,20.8,0.005,0.0568,0.0057,0.0185937,R,10.625,1,0,0.0942308,2,Hirosawa_7-3 (74)
SLDRCE (2008),352,392,392,19.7,0.004843924,0.0167,0.004650167,0.007265886,R,8,2,0,0.216293,1,Zhang_SW1-2
Tran (2012),472,516,423,47.1,0.0027,0.0323,0.0027,0.013,R,8.01974,2,0,0.0734497,2,RW-A20-P10-S38
Hirosawa (1975),323.4,323.4,323.4,43.9,0.0244,0.047,0.0244,0.001570796,B,22.5,1.06667,0.222222,0,2,Tanabe_4-5 (122)
SLDRCE (2008),352,392,392,19.7,0.004843924,0.0167,0.004650167,0.007265886,R,8,2,0,0.32444,1,Zhang_SW1-3
Oh et al. (2006),342,342,449,27.6,0.0032,0.0127,0.0028,0.0099,R,7.5,1.33333,0,0.0807018,1,HRI-W2
Gebreyohaness et al (2014),490,490,631,19.3,0.0013,0.014,0.0011,0,R,5.65217,1.84615,0,0.0519868,2,WPS10
Hirosawa (1975),382.2,382.2,382.2,22.4,0.0036,0.0068,0.0041,0.000684169,F,12.3333,0.581081,0.223881,0,2,Kokusho_1-2 (36)
Tomazevic et al. (1996),478,478,538,54.8,0.0026,0.023,0.0026,0,R,19.4,1.4433,0,0.0383212,2,SW23N1
SLDRCE (2008),352,392,392,37.7,0.006230058,0.0167,0.005980855,0.009345087,R,8,2,0,0.417282,1,Zhang_SW5-2
Hirosawa (1975),323.4,323.4,401.8,17.9,0.0073,0.0152,0.0072,0.000569661,F,16.8182,1.08108,0.258314,0,2,Kokusho_3-7 (54)
Tasnimi (2000),276,216,276,23.5,0.0028,0.0224,0.0028,0,R,10,2.2,0,0,1,SHW4
Deng et al.(2008),433.3,361.6,361.6,58.85,0.001669108,0.0187206,0.005280179,0.006400218,R,10,2,0,0.136487,1,HPCW-02
Nakamura et al. (2009),296,296,296,41.8,0.0156,0.0156,0.0156,0.0156,F,25.6667,0.727273,0.254777,0.0465368,2,I-2
Hidalgo et al. (2002),366,366,366,19,0.0013,0.0625,0.0025,0.0025,R,21.25,0.352941,0,0,2,15
Tomazevic et al. (1996),478,478,478,41.1,0.0026,0,0.0026,0,R,19.4,1.4433,0,0.0510949,2,SW00N1
Hube et al. (2017),446,446,446,28.9,0.002,0.001964126,0.002,0.008,R,16,1.09375,0,0,2,WSL5
SLDRCE (2008),352,392,392,37.7,0.006230058,0.0167,0.005980855,0.009345087,R,8,1,0,0.417282,2,Zhang_SW2-1
Mansur et al. (1992),429,429,460,31.4,0.0055,0.0314,0.0055,0.0028,B,11.6667,0.857143,0.243902,0,2,W2
Dabbagh (2005),500,500,500,53.72,0.013,0.0429766,0.013,0.001368736,F,10.6667,1.25,0.277778,0.112403,2,SW2
Hidalgo et al. (2002),366,366,366,17,0.0013,0.0533333,0.0026,0.0026,R,14,0.5,0,0,2,12
Dabbagh (2005),500,500,500,63.99,0.008,0.0458602,0.008,0.001000377,F,10.6667,1.25,0.277778,0.0925926,2,SW3
Aanasopoulou (2010),341.936,341.936,250.566,37.0387,0.0071,0.0098,0.0071,0.1282777,R,10,1.3,0,0,1,S6
Jiang et al. (2013),450.1,435.2,450.1,28,0.0066,0.0125,0.0066,0.00337,F,8,2.5,0.277778,0.3,1,SW4
Cheng et al. (2016),453,453,453,39,0.0031,0.0316,0.0031,0.0283,R,10.0099,1,0,0,2,M60
Hirosawa (1975),401.8,401.8,401.8,26.5,0.0043,0.0071,0.0049,0.000707761,F,14.8,0.581081,0.24234,0,2,Kokusho_2-1 (42)
Salonikios et al. (1999),585,610,610,21.6,0.0028,0.013,0.0028,0.017,R,12,1,0,0,2,LSW2
Hirosawa (1975),323.4,323.4,323.4,40.8,0.0122,0.047,0.0122,0.001570796,B,11.25,1.06667,0.142857,0,2,Tanabe_4-12 (129)
Hirosawa (1975),294,294,294,46.3,0.0244,0.047,0.0244,0.001570796,B,45,1.06667,0.307692,0,2,Tanabe_4-1 (118)
Pilakoutas et al. (1995),545,400,400,45.8,0.0031,0.0293,0.0031,0.0041,R,10,2,0,0,1,SW8
Salonikios et al. (1999),610,610,610,26.2,0.0028,0.013,0.0028,0.011,R,12,1.5,0,0,1,MSW2
Hirosawa (1975),284.2,284.2,294,34.3,0.0183,0.047,0.0183,0.001570796,B,22.5,1.06667,0.222222,0,2,Tanabe_2-5 (101)
Kabeyasawa and Matsumoto (1992),776,1262,1262,74.88,0.004850206,0.01888,0.01416,0.01128,B,16.25,2.30769,0.217391,0.102425,2,NW-2
Kuang and Ho (2008),520,520,520,33.8,0.0092,0,0.0105,0.021,R,12,1,0,0,1,U1.5-BC
Aanasopoulou (2010),336.669,336.669,261.112,36.494,0.0071,0.0053,0.0071,0.0644684,R,10,1,0,0,1,S1
Zhang and Wang (2000),305,305,305,36.8,0.0067,0.0088,0.0101,0.12,R,7,2.14286,0,0.193696,1,SW7
Chiou et al. (2004),458.72,458.84,458.84,23.45,0.003752,0.0108289,0.00197422,0.002961331,B,12.5,1.33333,0.003448276,0,2,LWF1
Kabeyasawa and Matsumoto (1992),726,1233,1233,43.68,0.001991405,0.0246702,0.00984,0.00784,B,16.25,2.30769,0.217391,0.156076,2,NW-4
Hirosawa (1975),323.4,323.4,323.4,43.1,0.0163,0.047,0.0163,0.001570796,B,15,1.06667,0.173913,0,2,Tanabe_4-8 (125)
Yanez et al. (1991),475,475,475,34,0.005,0.005,0.004,0.004,R,16.6667,1.15,0,0,1,S1
Hube et al. (2017),446,446,446,28.9,0.0014,0.001374888,0.0014,0.008,R,16,1.09375,0,0,2,WSL6
Liu et al. (2009),438,443,442.7,130.8,0.0147,0.0555,0.0245,0.0226,B,6.68421,5,0.384848,0.0263721,1,M20C
Cheng et al. (2016),475,475,453,44,0.0082,0.052,0.0082,0.0283,R,10.0099,1,0,0,2,H60
Alarcon et al. (2014),469.2,608.9,469.2,27.4,0.0072,0.0045,0.0044,0,R,7,2.5,0,0.350156,1,W3
Terzioglu et al. (2018),584,584,473,24,0.0034,0.0515,0.0034,0.0034,R,12.5,0.5,0,0,2,T1-S2-9
Hirosawa (1975),571,571.3,284.2,20.6,0.0066,0.0177,0.0066,0.000567232,B,27,0.5,0.2,0,2,Sugano_2-1 (140)
Terzioglu et al. (2018),481,481,440,23.7,0.0034,0.0515,0.0034,0.0034,R,12.5,0.5,0,0,2,T1-S1-2
Su and Wong (2007),412,262,412,50.9,0.0196,0,0.0054,0,R,5,3.7875,0,0.499402,1,W2
SLDRCE (2008),352,392,392,37.7,0.006230058,0.0167,0.005980855,0.009345087,R,8,2,0,0.417282,1,Zhang_SW4-2
Hirosawa (1975),284.2,284.2,284.2,20.5,0.0069,0.0177,0.0066,0.000567232,B,27,0.5,0.2,0,2,Sugano_2-6 (145)
Teng and Chandra (2016),630,610,617,93.5,0.0028,0.0693,0.0028,0.0285,B,4.4,2.72727,0.302158,0.05,2,J4
Hirosawa (1975),323.4,323.4,323.4,44.4,0.0163,0.047,0.0163,0.001570796,B,15,1.06667,0.173913,0,2,Tanabe_4-9 (126)
Hirosawa (1975),294,294,294,40,0.0122,0.047,0.0122,0.001570796,B,15,1.06667,0.173913,0,2,Tanabe_3-5 (114)
Hirosawa (1975),323.4,323.4,401.8,14.2,0.0045,0.0152,0.0043,0.000569661,F,15.4167,1.08108,0.24744,0,2,Kokusho_3-4 (51)
Teng and Chandra (2016),630,610,617,96.8,0.0075,0.0388,0.0028,0.0253,F,7.6,2.89474,0.306122,0.05,2,J6
SLDRCE (2008),352,392,392,37.7,0.007476069,0.0134,0.005980855,0.009345087,R,8,2,0,0.417282,1,Zhang_SW5-1
SLDRCE (2008),526.7,345,345,37.3,0.007,0.0372,0.0084,0.014,R,12,2.61111,0,0.197006,1,Zhou_SW1
Terzioglu et al. (2018),481,481,440,25.8,0.0068,0.0515,0.0068,0.0068,R,12.5,0.5,0,0,2,T2-S2-3
Su and Wong (2007),412,262,412,49.6,0.0196,0,0.0108,0,R,5,3.7875,0,0.486597,1,W3
Hirosawa (1975),284.2,284.2,294,35.8,0.0092,0.047,0.0092,0.001570796,B,11.25,1.06667,0.142857,0,2,Tanabe_2-13 (109)
Park et al. (2015),653,667,667,46.1,0.0036,0.097,0.0025,0,R,7.5,1.16667,0,0.0701374,2,S5
Hirosawa (1975),323.4,323.4,323.4,45.1,0.0244,0.047,0.0244,0.001570796,B,22.5,1.06667,0.222222,0,2,Tanabe_4-6 (123)
Kuang and Ho (2008),520,520,520,30.4,0.0092,0,0.0105,0,R,12,1,0,0,1,U1.0
Liu et al. (2009),481,503.3,503,80.1,0.0147,0.053,0.0184,0.0358,B,6.68421,5,0.384848,0.0430645,1,M15C
Pilakoutas et al. (1995),540,400,400,31.8,0.0047,0.0302,0.0031,0.0017,R,10,2,0,0,2,SW5
Barda et al. (1977),526,494.7,473.3,28.9,0,0.041,0.005,0.003652109,F,16.6863,0.559929,0.208761,0,2,B5-4
Tomazevic et al. (1996),469,469,465,41.1,0.0038,0.06,0.0038,0,R,19.4,1.4433,0,0.0510949,2,SW60N1
Teng and Chandra (2016),630,610,617,103.3,0.0028,0.0388,0.0028,0.0253,F,7.6,1.57895,0.306122,0.05,2,J1
Hube et al. (2017),446,604,604,28.9,0.002,0.001964126,0.002,0.008,R,16,1.09375,0,0,2,WSL1
Kabeyasawa and Matsumoto (1992),726,1233,1233,44.4,0.001991405,0.0185419,0.00984,0.00784,B,16.25,2.30769,0.217391,0.134352,2,NW-3
Lefas et al. (1990a),470,520,420,32.48,0.024,0.031,0.011,0.012,R,10.7143,1.1,0,0.208187,1,SW13
Greifenhagen and Lestuzzi (2005),504,504,504,50.7,0.003,0,0.003,0,R,10,0.69,0,0.0266272,1,M1
Dabbagh (2005),500,500,500,63.99,0.008,0.0458602,0.008,0.001000377,F,10.6667,1.25,0.277778,0,2,SW4
Kuang and Ho (2008),520,520,520,37.7,0.0092,0,0.0105,0,R,12,1,0,0,1,U1.0-CT
Oesterle et al. (1976),504.3,504.3,504.7,45,0.0029,0.0111,0.0031,0.0128,B,12.6961,3.5305,0.292403,0,1,B4
SLDRCE (2008),352,392,392,19.7,0.004843924,0.0167,0.004650167,0.007265886,R,8,2,0,0.108147,1,Zhang_SW1-1
Gebreyohaness et al (2014),351,351,488,19.6,0.002,0.014,0.0017,0,R,8.66667,1.84615,0,0,2,WPS3
Aanasopoulou (2010),322.612,322.612,231.24,36.494,0.0083,0.01,0.0083,0.131143,R,10,1,0,0,2,S4
Lefas et al. (1990a),470,520,420,34.24,0.025,0.033,0.008,0.009,R,10,2.11538,0,0,1,SW21
Hirosawa (1975),382.2,382.2,382.2,16.9,0.0036,0.0068,0.0041,0.000684169,F,12.3333,0.581081,0.223881,0,2,Kokusho_1-5 (39)
Tripathi et al. (2019),258.2,258.2,376.6,35.94,0.0055,0.0228,0.0102,0.0102,R,13.3333,1,0,0.055,1,SWD-1
Gebreyohaness et al (2014),300,300,429,20.9,0.0013,0,0.0012,0,R,5.65217,1.23077,0,0.0480069,2,WPS2
Hidalgo et al. (2002),367,367,367,16.4,0.0025,0.0791667,0.0025,0.0025,R,16.25,0.692308,0,0,2,10
Lefas et al. (1990a),470,520,420,38.64,0.025,0.033,0.008,0.009,R,10,2.11538,0,0,1,SW24
Oesterle et al. (1976),520.2,520.2,520.2,53,0.0029,0.0111,0.0031,0.000305652,B,12.6961,3.5305,0.292403,0,1,B1
Hirosawa (1975),294,294,294,48.7,0.0183,0.047,0.0183,0.001570796,B,22.5,1.06667,0.222222,0,2,Tanabe_3-4 (113)
Hirosawa (1975),284.2,284.2,294,35.6,0.0122,0.047,0.0122,0.001570796,B,15,1.06667,0.173913,0,2,Tanabe_2-8 (104)
SLDRCE (2008),352,392,392,19.7,0.004843924,0.0167,0.004650167,0.007265886,R,8,2,0,0.216293,1,Zhang_SW3-1
Hirosawa (1975),623.3,623.3,623.3,26,0.0079,0.0081,0.0076,0.01017876,B,35,0.5,0.294118,0.0665158,1,Endo_1-5 (5)
Hirosawa (1975),293.02,293,294,25.7,0.0023,0.0251,0.0021,0.000615752,B,13.3333,1.75,0.3125,0.152529,1,Hirosawa_1-4 (9)
Tran (2012),477,443,423,48.6,0.0061,0.0711,0.0061,0.013,R,8.01974,2,0,0.0730705,1,RW-A20-P10-S63
Tomazevic et al. (1996),469,469,465,41.1,0.0038,0.06,0.0038,0,R,19.4,1.4433,0,0.10219,2,SW60N2
Hirosawa (1975),293,293,294,29.9,0.0023,0.0252,0.0021,0.000615752,B,13.3333,1.75,0.3125,0.0655518,1,Hirosawa_2-3 (12)
Hirosawa (1975),323.4,323.4,401.8,18.6,0.0067,0.0071,0.007,0.000569661,F,15.4167,0.581081,0.24744,0,2,Kokusho_2-6 (47)
Park et al. (2015),653,477,667,46.5,0.0066,0.097,0.0068,0,R,7.5,1.16667,0,0.06953405,2,S2
Ren et al. (2018),312,312,432,44.8,0.00259015,0.0301225,0.006043683,0.006512681,R,5.13889,1.83784,0,0.180052,1,RC-W
Tasnimi (2000),276,216,276,22.5,0.0028,0.0224,0.0028,0,R,10,2.2,0,0,1,SHW3
Hirosawa (1975),382.2,382.2,382.2,16.1,0.0036,0.0068,0.0041,0.000684169,F,12.3333,0.581081,0.223881,0,2,Kokusho_1-6 (40)
Tran (2012),477,443,423,57.5,0.0061,0.0606,0.0061,0.0129797,R,8.01974,1.50041,0,0.0158625,2,RW-A15-P2.5-S64
Lefas et al. (1990a),470,520,420,38.64,0.024,0.031,0.0037,0.012,R,10.7143,1.1,0,0,1,SW17
Hirosawa (1975),406.7,421.3,421.3,13.7,0.005,0.0568,0.0057,0.0185937,R,10.625,1,0,0.143066,1,Hirosawa_7-4 (75)
Hube et al. (2017),446,632,632,28.9,0.0017,0.001669507,0.0017,0.006,R,18.8235,1.09375,0,0,2,WSL8
Greifenhagen and Lestuzzi (2005),504,504,504,51,0.003,0,0,0,R,10,0.69,0,0.02745098,1,M2
Gebreyohaness et al (2014),351,351,488,16.2,0.0013,0.014,0.0011,0,R,5.65217,1.84615,0,0,2,WPS4
Hirosawa (1975),293,293,294,27.1,0.0023,0.0251,0.0021,0.000615752,B,13.3333,1.75,0.3125,0.0361624,1,Hirosawa_1-2 (7)
Oesterle et al. (1976),525,525,525,38.4,0.003,0.0389,0.0071,0.014336,F,16.6863,2.68625,0.258924,0,2,F1
Hsiao et al.(2008),364.56,364.56,515.48,27.3,0.0036,0.004595717,0.0036,0.001132925,B,31.25,0.8,0,0,2,LW1
SLDRCE (2008),352,392,392,37.7,0.006230058,0.0167,0.005980855,0.009345087,R,8,2,0,0.417282,1,Zhang_SW3-2
Pilakoutas et al. (1995),500,550,550,36.9,0.0031,0.0283,0.0039,0.0078,R,10,2,0,0,1,SW4
Hube et al. (2014),445.6,523.9,445.6,27.4,0.0067,0.0049,0.0046,0,R,9.33333,2.5,0,0.150156,2,W4
Oesterle et al. (1979),474.7,474.7,474.7,45.6,0.0029,0.0197,0.0063,0.0135,B,12.6961,3.5305,0.292403,0.0824044,1,B10
Jiang et al. (2013),450.1,435.2,450.1,28,0.0066,0.0125,0.0066,0.00222,F,8,2.5,0.277778,0.3,1,SW3
Lefas et al. (1990b),470,520,420,53.6,0.015,0.033,0.0035,0.009,R,10,2.11538,0,0,1,SW32
Dazio et al. (2009),518.9,518.9,562.2,38.3,0.0027,0.0067,0.0025,0.0117,R,13.3333,2.28,0,0.128285,1,WSH5
Hirosawa (1975),323.4,323.4,401.8,15.4,0.0055,0.0071,0.0063,0.000569661,F,18.5,0.581081,0.270186,0,2,Kokusho_2-4 (45)
Tasnimi (2000),276,216,276,21.6,0.0028,0.0224,0.0028,0,R,10,2.2,0,0,1,SHW2
Hirosawa (1975),406.7,414.9,414.9,14.7,0.005,0.0568,0.0108,0.0371874,R,10.625,1,0,0.133333,2,Hirosawa_7-5 (76)
Hirosawa (1975),261.7,261.7,294,18.6,0.0024,0.0252,0.0024,0.000615752,B,13.3333,1.75,0.3125,0,1,Hirosawa_2-1 (10)
Hwang et al. (2004),364,364,571,13.9,0.0019,0.019,0.0019,0.0102634,B,29.1667,0.442857,0,0,2,WF-12
Dazio et al. (2009),583.6,583.6,583.6,45,0.003,0.0132,0.0025,0.0106,R,13.3333,2.28,0,0.051037,1,WSH1
Lefas et al. (1990a),470,520,420,41.36,0.024,0.031,0.011,0.012,R,10.7143,1.1,0,0.211845,1,SW16
Hirosawa (1975),294,294,294,43.4,0.0183,0.047,0.0183,0.001570796,B,45,1.06667,0.307692,0,2,Tanabe_3-2 (111)
Hube et al. (2014),445.6,608.9,445.6,27.4,0.0072,0.0045,0.0044,0,R,7,1.9,0,0.149635,1,W5
Zhu and Guo (2017),438,430,451,35.38,0.003436073,0.0195206,0.0038,0.0109645,R,8.5,1.92941,0,0.078642,1,MW
Hirosawa (1975),623.3,623.3,623.3,26,0.0016,0.0081,0.0014,0.002261947,B,21.875,1.07143,0.235849,0.0533382,2,Endo_1-3 (3)
Alarcon et al. (2014),469.2,608.9,469.2,27.4,0.0072,0.0045,0.0044,0,R,7,2.5,0,0.249739,1,W2
Salonikios et al. (1999),610,610,610,24.1,0.0028,0.013,0.0028,0.011,R,12,1.5,0,0.07,1,MSW3
Christidis and Trezos (2017),572,568,568,31.12,0.01206,0.0123148,0.00113,0,R,6,1.86667,0,0,2,W11
Hirosawa (1975),571.3,571.3,284.2,19.6,0.0032,0.0177,0.0033,0.000567232,B,27,0.5,0.2,0,2,Sugano_2-4 (143)
Tasnimi (2000),276,216,276,21.6,0.0028,0.0224,0.0028,0,R,10,2.2,0,0,1,SHW1
Hirosawa (1975),284.2,284.2,294,30.1,0.0183,0.047,0.0183,0.001570796,B,22.5,1.06667,0.222222,0,2,Tanabe_2-6 (102)
Lu et al. (2019),300,300,300,40.5,0.0053,0,0.0025,0,R,9.33333,2,0,0.0381479,1,C3
Hube et al. (2017),446,604,604,28.9,0.0025,0.002455157,0.0025,0.006,R,18.8235,1.09375,0,0,2,WSL7
Tokunaga and Nakachi (2012),393,372,393,61.3,0.0291,0,0.0116,0,R,4.77778,1.51163,0,0.199805,2,No3
Kuang and Ho (2008),520,520,520,34.1,0.0092,0,0.0105,0.021,R,12,1,0,0,1,U1.0-BC2
Villalobos (2014),434,530.9,482.6,31,0.004,0.049,0.0055,0.0123,R,7.50739,2.1752,0,0.0926714,2,W40C
Dazio et al. (2009),583.7,518.9,518.9,45.6,0.0054,0.0154,0.0025,0.0148,R,13.3333,2.26,0,0.107895,1,WSH6
Hirosawa (1975),323.4,323.4,401.8,17.9,0.0044,0.0071,0.005,0.000569661,F,14.8,0.581081,0.24234,0,2,Kokusho_2-3 (44)
Park et al. (2015),653,667,667,46.5,0.0066,0.097,0.0051,0,R,7.5,1.16667,0,0.06953405,2,S1
Oesterle et al. (1979),453.4,481.6,453.4,42,0.0029,0.0367,0.0138,0.0135,B,12.6961,3.5305,0.292403,0.08946765,2,B8
Hirosawa (1975),323.4,323.4,323.4,43.7,0.0122,0.047,0.0122,0.001570796,B,11.25,1.06667,0.142857,0,2,Tanabe_4-11 (128)
Hirosawa (1975),294,294,294,42.5,0.0092,0.047,0.0092,0.001570796,B,11.25,1.06667,0.142857,0,2,Tanabe_3-8 (117)
Park et al. (2015),653,667,667,46.5,0.0054,0.097,0.0051,0.0498,B,5.5,1.59091,0.176471,0.0727388,2,S4
Kuang and Ho (2008),520,520,520,35.2,0.0092,0,0.0105,0,R,12,1,0,0,1,C1.0
Hirosawa (1975),284.2,284.2,294,34.3,0.0122,0.047,0.0122,0.001570796,B,15,1.06667,0.173913,0,2,Tanabe_2-9 (105)
Deng et al.(2008),433.3,361.6,361.6,68.82,0.001001489,0.0185611,0.008000465,0.006400372,R,10,2,0,0.116717,1,HPCW-04
Barda et al. (1977),527,495.4,477.5,23.4,0.005,0.041,0.005,0.003652109,F,16.6863,1.11927,0.208761,0,2,B8-5
Dazio et al. (2009),576,518.9,576,40.9,0.0054,0.0154,0.0025,0,R,13.3333,2.28,0,0.0566422,1,WSH4
Hirosawa (1975),284.2,284.2,284.2,19.6,0.0069,0.0177,0.0066,0.000567232,B,27,0.5,0.2,0,2,Sugano_2-7 (146)
Oh et al. (2002),342,342,449,27.6,0.0032,0.0127,0.0028,0,R,7.5,1.33333,0,0.0838906,1,WR-0
Dazio et al. (2009),569.2,489,489,39.2,0.0054,0.0154,0.0025,0.01,R,13.3333,2.28,0,0.0583333,1,WSH3
Hirosawa (1975),323.4,323.4,401.8,16.8,0.0073,0.0152,0.0072,0.000569661,F,16.8182,1.08108,0.258314,0,2,Kokusho_3-8 (55)
Oh et al. (2006),342,342,449,27.6,0.0036,0.0099,0.0028,0.0094,B,8.16,1.96078,0.23733,0.0818989,1,HRI-W7
Oesterle et al. (1976),531.9,531.9,531.9,53.6,0.0029,0.0367,0.0063,0.000302312,B,12.6961,3.5305,0.292403,0,2,B2
Pilakoutas et al. (1995),540,550,550,32,0.0047,0.0302,0.0039,0.0078,R,10,2,0,0,2,SW7
Hirosawa (1975),294,294,294,46.1,0.0122,0.047,0.0122,0.001570796,B,15,1.06667,0.173913,0,2,Tanabe_3-6 (115)
Hirosawa (1975),406.7,414.9,414.9,18.3,0.005,0.0568,0.0108,0.0371874,R,10.625,1,0,0.107104,1,Hirosawa_7-6 (77)
Tripathi et al. (2020),258.2,258.2,376.6,37.71,0.0055,0.0228,0.0102,0.0077,R,13.3333,1,0,0.055,1,SWD-2
Liu et al. (2009),444,458.4,458,45.9,0.0147,0.0555,0.0184,0.0226,B,6.68421,5,0.384848,0.0751518,2,M05C
Lu et al. (2021),300,300,300,40.5,0.0053,0,0.0025,0.006666667,R,9.33333,2,0,0.074657,1,C5
Cheng et al. (2016),475,475,453,42,0.0082,0.052,0.0082,0.0141,R,10.0099,1,0,0,2,H60X
Lu et al. (2020),300,300,300,40.5,0.0053,0,0.0025,0,R,9.33333,2,0,0,1,C4
Tomazevic et al. (1996),478,478,538,41.1,0.0026,0.023,0.0026,0.001679157,R,19.4,1.4433,0,0.10219,2,SW23C2
Hirosawa (1975),406.7,414.9,414.9,18.3,0.005,0.0251,0.0108,0.0371874,R,10.625,1,0,0.107104,1,Hirosawa_8-4 (81)
Hube et al. (2014),445.6,608.9,445.6,27.4,0.0072,0.0045,0.0044,0,R,7,2.5,0,0.149635,1,W7
Pilakoutas et al. (1995),540,400,400,38.9,0.0031,0.0293,0.0031,0.0045,R,10,2,0,0,1,SW9
Hidalgo et al. (2002),370,370,370,18.1,0.0026,0.0533333,0.0026,0.0026,R,14,0.5,0,0,2,13
Oesterle et al. (1976),534.7,534.7,534.7,46.4,0.0025,0.04,0.0031,0.0207,R,18.6765,2.4,0,0,1,R2
SLDRCE (2008),343,392,392,37.7,0.006393529,0.0122,0.005980855,0.009345087,R,8,2,0,0.417282,1,Zhang_SW4-1
Barda et al. (1977),539,500.9,500.9,25.7,0.005,0.041,0.005,0.003652109,F,16.6863,0.279671,0.208761,0,2,B7-5
Tokunaga and Nakachi (2012),393,372,393,32.5,0.0291,0,0.0116,0,R,4.77778,1.51163,0,0.39992,2,No4
Lefas et al. (1990a),470,520,420,38.24,0.025,0.033,0.008,0.009,R,10,2.11538,0,0.2123,1,SW23
Villalobos (2014),434,530.9,482.6,30.7,0.004,0.049,0.0055,0.0123,R,7.50739,2.1752,0,0.093577,1,WMCC
Hube et al. (2017),446,604,604,28.9,0.002,0.001964126,0.002,0.003,R,16,1.09375,0,0,2,WSL2
Hube et al. (2014),445.6,608.9,608.9,27.4,0.0072,0.0045,0.0064,0.0116,R,7,2.5,0,0.149635,1,W8
Chiou et al. (2004),458.72,458.84,458.84,23.45,0.0038,0.0109675,0.001999477,0.002999215,B,12.5,1.33333,0.003448276,0,2,MWF1
Tomazevic et al. (1996),469,469,465,41.1,0.0038,0.06,0.0038,0.001647541,R,19.4,1.4433,0,0.0510949,2,SW60C1
Hirosawa (1975),406.7,419,419,17.2,0.005,0.0568,0.0026,0.009296853,R,10.625,1,0,0.113953,2,Hirosawa_7-1 (72)
Tomazevic et al. (1996),469,469,465,41.1,0.0038,0.06,0.0038,0.001647541,R,19.4,1.4433,0,0.10219,2,SW60C2
Lefas et al. (1990b),470,520,420,49.2,0.015,0.033,0.0035,0.009,R,10,2.11538,0,0,1,SW33
Liu et al. (2009),475,544.7,544.3,56.4,0.0147,0.0555,0.0184,0.0226,B,6.68421,5,0.384848,0.0611608,2,M10C
SLDRCE (2008),352,392,392,37.7,0.006230058,0.0167,0.005980855,0.009345087,R,8,1.5,0,0.417282,1,Zhang_SW2-2
Hube et al. (2014),445.6,608.9,445.6,27.4,0.0134,0,0.0044,0,R,7,2.5,0,0.149635,1,W6
Dazio et al. (2009),583.1,484.9,484.9,40.5,0.003,0.0132,0.0025,0.0109,R,13.3333,2.28,0,0.0568724,1,WSH2
Kuang and Ho (2008),520,520,520,34.2,0.0092,0,0.0105,0,R,12,1,0,0,1,C1.5
Tomazevic et al. (1996),478,478,538,41.1,0.0026,0.023,0.0026,0.001679157,R,19.4,1.4433,0,0.0510949,2,SW23C1
Massone et al. (2009),424,424,424,31.4,0.00227,0.0133,0.00278,0,R,8.02632,1.12295,0,0.000101333,2,WP-T5-N10-S2
Villalobos (2014),434,530.9,482.6,31.4,0.004,0.049,0.0055,0.0123,R,7.50739,2.1752,0,0.0914908,2,W60C
Dabbagh (2005),500,500,500,60.83,0.01,0.0504237,0.01,0.001240932,F,10.6667,1.25,0.277778,0.107095,2,SW6
SLDRCE (2008),352,348,348,37.7,0.006230058,0.0167,0.002137772,0.003340268,R,8,2,0,0.417282,1,Zhang_SW6-1
Teng and Chandra (2016),630,610,617,103.3,0.0028,0.0388,0.0028,0.0253,F,7.6,2.89474,0.306122,0.05,2,J5
Hirosawa (1975),401.8,401.8,401.8,14.2,0.004,0.0152,0.0038,0.000707761,F,13.7037,1.08108,0.232745,0,2,Kokusho_3-3 (50)
Hidalgo et al. (2002),392,392,392,19.4,0.0025,0.0472222,0.0013,0.0013,R,8.33333,1,0,0,2,1
SLDRCE (2008),352,392,392,37.7,0.006230058,0.0167,0.005980855,0.009345087,R,8,2,0,0.417282,1,Zhang_SW2-3
Lefas et al. (1990b),470,520,420,30.1,0.015,0.033,0.0035,0.009,R,10,2.11538,0,0,1,SW30
Oesterle et al. (1976),478.5,478.5,478.5,47.3,0.0029,0.0111,0.0031,0.0128,B,12.6961,3.5305,0.292403,0,1,B3
Hirosawa (1975),406.7,414.9,414.9,14.7,0.005,0.0251,0.0108,0.0371874,R,10.625,1,0,0.133333,1,Hirosawa_8-3 (80)
Jiang et al. (2013),450.1,435.2,450.1,28,0.0066,0.0125,0.0066,0.00222,F,8,2.5,0.277778,0.2,1,SW2
Yuan et al. (2018),544,544,473,45.9,0.0039,0.0037,0.0033,0.008881633,R,6.4,1.84375,0,0.129953,1,SW-1
Salonikios et al. (1999),585,610,610,22.2,0.0057,0.017,0.0057,0.017,R,12,1,0,0,2,LSW1
Oh et al. (2006),342,342,449,27.6,0.0032,0.0127,0.0028,0.0197,R,7.5,1.33333,0,0.0762431,1,HRI-W5
Hirosawa (1975),294,294,294,42.9,0.0183,0.047,0.0183,0.001570796,B,22.5,1.06667,0.222222,0,2,Tanabe_3-3 (112)
Kabeyasawa and Matsumoto (1992),776,1262,1262,70.08,0.004850206,0.01888,0.01416,0.01128,B,16.25,2.30769,0.217391,0.10944,2,NW-1
Kabeyasawa and Matsumoto (1992),726,1233,1233,52.16,0.003899835,0.03184,0.00984,0.00784,B,16.25,2.30769,0.217391,0.130702,2,NW-6
Hirosawa (1975),284.2,284.2,294,32.8,0.0092,0.047,0.0092,0.001570796,B,11.25,1.06667,0.142857,0,2,Tanabe_2-11 (107)
Salonikios et al. (1999),610,610,610,26.1,0.0057,0.017,0.0057,0.011,R,12,1.5,0,0,1,MSW1
Jiang et al. (2013),450.1,435.2,450.1,28,0.0066,0.0125,0.0066,0.00275,R,10,2,0,0.3,1,SW7
Villalobos (2014),434,530.9,434,33.8,0.004,0.049,0.0055,0,R,7.50739,2.1752,0,0.0849945,2,W60N
Tomazevic et al. (1996),478,478,478,41.1,0.0026,0,0.0026,0,R,19.4,1.4433,0,0.10219,2,SW00N2
Gebreyohaness et al (2014),490,490,631,20.2,0.002,0.014,0.0017,0,R,8.66667,1.84615,0,0.0507743,2,WPS9
Hirosawa (1975),406.7,420.4,420.4,20.8,0.005,0.0251,0.0061,0.0185937,R,10.625,1,0,0.0942308,1,Hirosawa_8-1 (78)
Hube et al. (2017),446,446,446,28.9,0.0025,0.002455157,0.0025,0.006,R,18.8235,1.09375,0,0,2,WSL9
Deng et al.(2008),433.3,361.6,361.6,49.1,0.001667557,0.0243782,0.005275273,0.003996419,R,10,2,0,0.163438,1,HPCW-01
Kabeyasawa and Matsumoto (1992),726,1233,1233,48.24,0.003899835,0.0246702,0.00984,0.00784,B,16.25,2.30769,0.217391,0.123657,2,NW-5
Hirosawa (1975),323.4,323.4,401.8,16.2,0.005,0.0152,0.0048,0.000569661,F,16.8182,1.08108,0.258314,0,2,Kokusho_3-5 (52)
Lefas et al. (1990b),470,520,420,35.2,0.015,0.033,0.0035,0.009,R,10,2.11538,0,0,1,SW31
Ghorbani-Renani et al. (2009),448,452,452,28.3,0.0059,0.0403,0.0059,0.022,R,6.5,2.07692,0,0,2,A2C
Mohamed et al. (2014),400,400,400,39.2,0.0023,0.0063,0.0053,0.0063,R,7.5,2.33333,0,0.07,1,ST15
Gebreyohaness et al (2014),351,351,472,18.7,0.002,0.014,0.002,0,R,8.66667,1.23077,0,0,2,WSS1
Hidalgo et al. (2002),366,366,366,17.6,0.0026,0.0606667,0.0026,0.0026,R,13,0.692308,0,0,2,9
Hirosawa (1975),294,294,294,45.8,0.0183,0.047,0.0183,0.001570796,B,45,1.06667,0.307692,0,2,Tanabe_3-1 (110)
Hirosawa (1975),571.3,571.3,284.2,20.8,0.0066,0.0177,0.0066,0.000567232,B,27,0.5,0.2,0,2,Sugano_2-2 (141)
Chiou et al. (2004),458.72,458.84,458.84,23.45,0.0028,0.0109675,0.001999477,0.002999215,B,12.5,1.33333,0.003448276,0,2,MWF2
Lefas et al. (1990a),470,520,420,33.68,0.024,0.031,0.011,0.012,R,10.7143,1.1,0,0,1,SW14
Hirosawa (1975),284.2,284.2,294,33.8,0.0122,0.047,0.0122,0.001570796,B,15,1.06667,0.173913,0,2,Tanabe_2-10 (106)
Hwang et al. (2004),443,443,571,22.6,0.0042,0.019,0.0042,0.0124909,B,29.1667,0.442857,0,0,2,WF-15
Alarcon et al. (2014),469.2,608.9,469.2,27.4,0.0072,0.0045,0.0044,0,R,7,2.5,0,0.149844,1,W1
Kuang and Ho (2008),520,520,520,34.9,0.0092,0,0.0105,0,R,12,1,0,0,1,U1.5
Hube et al. (2017),446,601,601,28.9,0.0026,0.002553363,0.0026,0.008,R,16,1.09375,0,0,2,WSL3
Oesterle et al. (1979),463.7,463.7,463.7,45.6,0.0031,0.0435,0.0063,0.0143,F,16.6863,2.68625,0.258924,0.0725764,2,F2
Kimura and Sugano (1996),580,658,658,43.1,0.00785,0.01178,0.01131,0.01178,B,17.5,1.71429,0,0.255945,2,W4N18
Gebreyohaness et al (2014),530,530,667,18.4,0.002,0,0.0018,0,R,8.66667,1.23077,0,0.05574136,2,WPS1
Dabbagh (2005),500,500,500,60.83,0.005,0.0504237,0.005,0.00078566,F,10.6667,1.25,0.277778,0.107095,2,SW5